#  BetaPic_CJB_S11_Final_SLSHLH_bcd_fin.txt					
#  processed with PEP version 3 (August 31, 2006)					
#  Comments:					
#  LH 03, SH 02+04, SL1 05+07+09, SL2 03+05+07					
#  (SH + 0.22 [~sky]) X 1.068					
#  truncated SH below 13.975 micron					
#  used SL bonus order from 7.41 to 8.40 micron					
#  ---					
#######################################################			
#  Wave (micron), Flux (Jy), error (spectrum), order, Stn Dev					

5.193900	7.836390	0.024612	0.024612	2	0.015170
5.223500	7.218530	0.022920	0.022920	2	0.016739
5.253100	7.330620	0.023880	0.023880	2	0.012918
5.282600	7.345680	0.022867	0.022867	2	0.009953
5.312200	7.322220	0.023194	0.023194	2	0.008461
5.341800	7.190280	0.023075	0.023075	2	0.008180
5.371400	7.114960	0.023588	0.023588	2	0.007886
5.400900	7.062480	0.022110	0.022110	2	0.009021
5.430500	6.989260	0.022219	0.022219	2	0.008589
5.460100	6.869960	0.021996	0.021996	2	0.008592
5.489600	6.771500	0.021971	0.021971	2	0.006698
5.519200	6.558230	0.022367	0.022367	2	0.009699
5.548800	6.555900	0.020550	0.020550	2	0.008347
5.578400	6.530300	0.021017	0.021017	2	0.009322
5.608000	6.632120	0.021322	0.021322	2	0.007715
5.637500	6.637860	0.021463	0.021463	2	0.007311
5.667100	6.574460	0.021516	0.021516	2	0.006413
5.696700	6.498800	0.025241	0.025241	2	0.005849
5.726300	6.476700	0.020801	0.020801	2	0.007085
5.755800	6.468000	0.021137	0.021137	2	0.007449
5.785400	6.415210	0.021323	0.021323	2	0.006117
5.815000	6.335960	0.021380	0.021380	2	0.006351
5.844500	6.205130	0.021232	0.021232	2	0.007459
5.874100	6.221440	0.022753	0.022753	2	0.008701
5.903700	5.971080	0.047273	0.047273	2	0.006448
5.933300	6.092240	0.021967	0.021967	2	0.006173
5.962800	5.997240	0.021929	0.021929	2	0.006314
5.992400	6.086450	0.020478	0.020478	2	0.007507
6.022000	6.043130	0.020807	0.020807	2	0.006935
6.051500	5.972670	0.020653	0.020653	2	0.008263
6.081100	6.001250	0.020695	0.020695	2	0.005698
6.110700	5.883410	0.020337	0.020337	2	0.006960
6.140300	5.874080	0.020412	0.020412	2	0.006898
6.169800	5.879560	0.020524	0.020524	2	0.005896
6.199400	5.897170	0.020551	0.020551	2	0.006426
6.229000	5.824080	0.020499	0.020499	2	0.005614
6.258600	5.798750	0.021727	0.021727	2	0.008096
6.288100	5.593650	0.027985	0.027985	2	0.007313
6.317700	5.739280	0.020355	0.020355	2	0.005428
6.347300	5.726420	0.020011	0.020011	2	0.006630
6.376900	5.585860	0.019857	0.019857	2	0.006006
6.406400	5.570640	0.019873	0.019873	2	0.000000
6.436000	5.645290	0.020195	0.020195	2	0.000000
6.465600	5.538140	0.020038	0.020038	2	0.000000
6.495200	5.366490	0.019487	0.019487	2	0.005078
6.524700	5.315820	0.019502	0.019502	2	0.006899
6.554300	5.330760	0.019626	0.019626	2	0.004496
6.583900	5.368550	0.019533	0.019533	2	0.004945
6.613500	5.325970	0.019407	0.019407	2	0.006191
6.643000	5.326340	0.019384	0.019384	2	0.006884
6.672600	5.225030	0.019081	0.019081	2	0.005210
6.702200	5.171370	0.019097	0.019097	2	0.004801
6.731800	5.060150	0.019449	0.019449	2	0.005368
6.761300	4.926690	0.032149	0.032149	2	0.008630
6.790900	5.029890	0.023977	0.023977	2	0.006688
6.820500	5.054180	0.018616	0.018616	2	0.007166
6.850000	5.067720	0.018756	0.018756	2	0.008993
6.879600	5.078320	0.019012	0.019012	2	0.006696
6.909200	5.047010	0.018970	0.018970	2	0.006448
6.938800	5.018960	0.018894	0.018894	2	0.007186
6.968300	5.034610	0.018881	0.018881	2	0.005830
6.997900	5.023170	0.018955	0.018955	2	0.006079
7.027500	5.022270	0.018991	0.018991	2	0.004909
7.057100	5.037140	0.019224	0.019224	2	0.005554
7.086600	5.022560	0.019080	0.019080	2	0.006088
7.116200	4.901670	0.018653	0.018653	2	0.004491
7.145800	4.808460	0.018473	0.018473	2	0.005319
7.175400	4.824650	0.018618	0.018618	2	0.007360
7.204900	4.777240	0.018586	0.018586	2	0.006518
7.234500	4.737630	0.018378	0.018378	2	0.006140
7.264100	4.752630	0.018617	0.018617	2	0.007086
7.293600	4.676370	0.018135	0.018135	2	0.005657
7.323200	4.549480	0.017816	0.017816	2	0.008424
7.352800	4.538240	0.017844	0.017844	2	0.009183
7.382900	4.595620	0.018307	0.018307	2	0.007507
7.413100	4.494360	0.025615	0.025615	3	0.005951
7.443400	4.427540	0.039625	0.039625	3	0.005766
7.473600	4.342340	0.038450	0.038450	3	0.003545
7.503900	4.254480	0.037075	0.037075	3	0.003462
7.534100	4.335720	0.025633	0.025633	3	0.005623
7.564400	4.394600	0.024656	0.024656	3	0.006022
7.594600	4.331710	0.024564	0.024564	3	0.006387
7.624800	4.360010	0.024653	0.024653	3	0.006996
7.655100	4.212270	0.023871	0.023871	3	0.005062
7.685300	4.256690	0.024037	0.024037	3	0.006158
7.715600	4.276670	0.024308	0.024308	3	0.003509
7.745800	4.339080	0.024696	0.024696	3	0.004477
7.776100	4.228590	0.024316	0.024316	3	0.004010
7.806300	4.343490	0.024766	0.024766	3	0.005024
7.836500	4.304250	0.024900	0.024900	3	0.004991
7.866800	4.386580	0.025416	0.025416	3	0.006632
7.897000	4.347550	0.025329	0.025329	3	0.004011
7.927300	4.267920	0.024556	0.024556	3	0.006054
7.957500	4.254890	0.024684	0.024684	3	0.004302
7.987800	4.374790	0.025442	0.025442	3	0.004046
8.018000	4.306230	0.025232	0.025232	3	0.003122
8.048200	4.341720	0.025470	0.025470	3	0.004333
8.078500	4.235870	0.025033	0.025033	3	0.003621
8.108700	4.266620	0.025455	0.025455	3	0.005778
8.139000	4.194290	0.026247	0.026247	3	0.004488
8.169200	4.200290	0.025186	0.025186	3	0.003737
8.199400	4.174610	0.025109	0.025109	3	0.003327
8.229700	4.184290	0.025245	0.025245	3	0.004635
8.259900	4.178600	0.025297	0.025297	3	0.003856
8.290200	4.144180	0.025193	0.025193	3	0.005776
8.320400	4.151740	0.025260	0.025260	3	0.004866
8.350700	4.131130	0.025069	0.025069	3	0.005641
8.380900	4.083040	0.024745	0.024745	3	0.005033
8.411100	4.089220	0.013336	0.013336	1	0.006097
8.471600	4.084430	0.013352	0.013352	1	0.003585
8.532100	4.041420	0.013260	0.013260	1	0.003822
8.592600	4.059590	0.013538	0.013538	1	0.003131
8.653100	3.991090	0.014978	0.014978	1	0.003383
8.713500	4.011520	0.014373	0.014373	1	0.004289
8.774000	3.931370	0.019377	0.019377	1	0.003130
8.834500	3.989680	0.013074	0.013074	1	0.003064
8.895000	3.960240	0.013143	0.013143	1	0.003135
8.955500	4.015840	0.013387	0.013387	1	0.002695
9.016000	4.106260	0.013808	0.013808	1	0.003946
9.076500	4.201670	0.014164	0.014164	1	0.003773
9.136900	4.239240	0.014410	0.014410	1	0.003694
9.197400	4.192480	0.014236	0.014236	1	0.002849
9.257900	4.138080	0.014088	0.014088	1	0.003396
9.318400	4.149190	0.014312	0.014312	1	0.003102
9.378900	4.109370	0.018246	0.018246	1	0.002979
9.439400	4.212410	0.014065	0.014065	1	0.003826
9.499800	4.285390	0.014863	0.014863	1	0.003673
9.560300	4.282000	0.014778	0.014778	1	0.002688
9.620800	4.306510	0.014953	0.014953	1	0.002829
9.681300	4.255470	0.014783	0.014783	1	0.003305
9.741800	4.174660	0.014476	0.014476	1	0.003726
9.802300	4.171050	0.014571	0.014571	1	0.003463
9.862700	4.127070	0.014297	0.014297	1	0.002890
9.923200	4.149060	0.014466	0.014466	1	0.002667
9.983700	4.127720	0.014435	0.014435	1	0.002976
10.044200	4.111600	0.014370	0.014370	1	0.003154
10.104700	4.096230	0.014363	0.014363	1	0.002562
10.165200	4.028870	0.014168	0.014168	1	0.002478
10.225600	3.978410	0.014284	0.014284	1	0.002743
10.286100	4.014310	0.013969	0.013969	1	0.002676
10.346600	4.079010	0.014447	0.014447	1	0.002651
10.407100	4.055050	0.014540	0.014540	1	0.003615
10.467600	4.043260	0.020424	0.020424	1	0.003388
10.528100	3.968180	0.018216	0.018216	1	0.003172
10.588500	3.985320	0.014232	0.014232	1	0.003551
10.649000	3.938260	0.014166	0.014166	1	0.003379
10.709500	3.913390	0.014142	0.014142	1	0.003562
10.770000	3.872390	0.014500	0.014500	1	0.003687
10.830500	3.865000	0.013656	0.013656	1	0.002879
10.891000	3.954490	0.014314	0.014314	1	0.003432
10.951500	3.949200	0.014380	0.014380	1	0.003236
11.011900	3.942930	0.014496	0.014496	1	0.004170
11.072400	3.888200	0.014339	0.014339	1	0.003480
11.132900	3.848490	0.014264	0.014264	1	0.003737
11.193400	3.873280	0.014487	0.014487	1	0.004198
11.253900	3.816710	0.015399	0.015399	1	0.002960
11.314400	3.656520	0.022101	0.022101	1	0.003089
11.374800	3.731220	0.013858	0.013858	1	0.002704
11.435300	3.629140	0.013782	0.013782	1	0.003038
11.495800	3.614180	0.014288	0.014288	1	0.003765
11.556300	3.576190	0.013528	0.013528	1	0.002920
11.616800	3.584930	0.013791	0.013791	1	0.003383
11.677200	3.594620	0.013918	0.013918	1	0.002788
11.737700	3.487870	0.013607	0.013607	1	0.002496
11.798200	3.457780	0.013590	0.013590	1	0.003437
11.858700	3.424990	0.013528	0.013528	1	0.002924
11.919200	3.424970	0.013595	0.013595	1	0.003007
11.979700	3.398760	0.013530	0.013530	1	0.002958
12.040100	3.379300	0.013516	0.013516	1	0.002818
12.100600	3.368310	0.013535	0.013535	1	0.002498
12.161100	3.400280	0.013719	0.013719	1	0.002519
12.221600	3.412260	0.013851	0.013851	1	0.002580
12.282100	3.393650	0.013898	0.013898	1	0.002249
12.342600	3.424670	0.016234	0.016234	1	0.002707
12.403100	3.404150	0.018212	0.018212	1	0.003176
12.463500	3.414600	0.013918	0.013918	1	0.002906
12.524000	3.311240	0.013986	0.013986	1	0.002708
12.584500	3.361600	0.014872	0.014872	1	0.002964
12.645000	3.380480	0.013856	0.013856	1	0.003323
12.705500	3.329560	0.013843	0.013843	1	0.003640
12.766000	3.323050	0.013872	0.013872	1	0.003902
12.826400	3.286990	0.013728	0.013728	1	0.004463
12.886900	3.340210	0.014028	0.014028	1	0.002707
12.947400	3.245280	0.013729	0.013729	1	0.003137
13.007900	3.257350	0.013814	0.013814	1	0.003099
13.068400	3.162340	0.013593	0.013593	1	0.003476
13.128900	3.348600	0.014583	0.014583	1	0.003362
13.189300	3.250920	0.013989	0.013989	1	0.003398
13.249800	3.301740	0.014122	0.014122	1	0.002967
13.310300	3.206020	0.013714	0.013714	1	0.003260
13.370800	3.222090	0.013904	0.013904	1	0.004185
13.431300	3.289010	0.014124	0.014124	1	0.003887
13.491800	3.225880	0.013861	0.013861	1	0.004307
13.552200	3.302770	0.014126	0.014126	1	0.003541
13.612700	3.370070	0.014367	0.014367	1	0.004059
13.673200	3.283170	0.014056	0.014056	1	0.003252
13.733700	3.260320	0.013937	0.013937	1	0.003553
13.794200	3.363720	0.014457	0.014457	1	0.005435
13.854700	3.465950	0.014978	0.014978	1	0.004198
13.915100	3.351020	0.014454	0.014454	1	0.004045
13.975600	3.359030	0.014212	0.014212	1	0.003357
13.984600	3.422740	0.504269	0.504269	15	0.005798
13.995300	3.331710	0.485943	0.485943	15	0.005853
14.006100	3.314370	0.480278	0.480278	15	0.007138
14.016900	3.332770	0.482163	0.482163	15	0.007309
14.027700	3.332850	0.482014	0.482014	15	0.005445
14.038500	3.412770	0.498603	0.498603	15	0.006412
14.049300	3.363090	0.489614	0.489614	15	0.005580
14.060100	3.367430	0.489461	0.489461	15	0.007195
14.070900	3.311070	0.334614	0.334614	15	0.004883
14.081700	3.317200	0.335005	0.335005	15	0.005579
14.092600	3.328900	0.336231	0.336231	15	0.005159
14.103400	3.294430	0.331181	0.331181	15	0.005393
14.114300	3.325040	0.334362	0.334362	15	0.004976
14.125100	3.308560	0.331481	0.331481	15	0.005822
14.136000	3.316690	0.331208	0.331208	15	0.005423
14.146900	3.287650	0.325356	0.325356	15	0.004318
14.157700	3.292690	0.325052	0.325052	15	0.004516
14.168600	3.298060	0.324533	0.324533	15	0.005147
14.179500	3.258520	0.317571	0.317571	15	0.004579
14.190400	3.273780	0.317519	0.317519	15	0.005401
14.201400	3.240000	0.311453	0.311453	15	0.004862
14.212300	3.240570	0.445874	0.445874	14	0.005372
14.223200	3.283110	0.452927	0.452927	14	0.004600
14.234200	3.289300	0.454136	0.454136	14	0.004482
14.245100	3.316030	0.458278	0.458278	14	0.004420
14.256100	3.163790	0.429775	0.429775	14	0.004055
14.267100	3.284450	0.449626	0.449626	14	0.003967
14.278100	3.231640	0.438474	0.438474	14	0.004175
14.289000	3.351220	0.458797	0.458797	14	0.004217
14.300000	3.283890	0.445740	0.445740	14	0.004510
14.311000	3.221190	0.434140	0.434140	14	0.003912
14.322100	3.251280	0.438223	0.438223	14	0.004776
14.333100	3.251030	0.436836	0.436836	14	0.003790
14.344100	3.380700	0.457619	0.457619	14	0.004480
14.355100	3.284900	0.440192	0.440192	14	0.004613
14.366200	3.283350	0.440683	0.440683	14	0.004286
14.377200	3.264500	0.437307	0.437307	14	0.004894
14.388300	3.292990	0.441563	0.441563	14	0.004973
14.399400	3.359340	0.452024	0.452024	14	0.004626
14.410500	3.318690	0.444224	0.444224	14	0.004653
14.421500	3.329790	0.444759	0.444759	14	0.004805
14.432600	3.258460	0.432141	0.432141	14	0.004404
14.443800	3.306060	0.438622	0.438622	14	0.003730
14.454900	3.354970	0.445027	0.445027	14	0.003749
14.466000	3.351320	0.443571	0.443571	14	0.004211
14.477100	3.349510	0.442824	0.442824	14	0.004093
14.488300	3.247830	0.423793	0.423793	14	0.004341
14.499400	3.286490	0.428812	0.428812	14	0.004035
14.510600	3.332300	0.435830	0.435830	14	0.004159
14.521700	3.338660	0.435816	0.435816	14	0.004290
14.532900	3.365980	0.440153	0.440153	14	0.004452
14.544100	3.249710	0.419146	0.419146	14	0.005178
14.555300	3.308320	0.427006	0.427006	14	0.004624
14.566500	3.317930	0.427136	0.427136	14	0.004027
14.577700	3.342660	0.430012	0.430012	14	0.004233
14.588900	3.364920	0.433448	0.433448	14	0.004118
14.600100	3.292740	0.420545	0.420545	14	0.005032
14.611400	3.331530	0.425913	0.425913	14	0.004524
14.622600	3.322780	0.425395	0.425395	14	0.003954
14.633900	3.425850	0.442343	0.442343	14	0.005272
14.645100	3.473470	0.453199	0.453199	14	0.004115
14.656400	3.394610	0.437172	0.437172	14	0.004810
14.667700	3.402860	0.435682	0.435682	14	0.004502
14.679000	3.309350	0.416637	0.416637	14	0.004761
14.690300	3.423190	0.433525	0.433525	14	0.005016
14.701600	3.403320	0.430258	0.430258	14	0.004222
14.712900	3.382880	0.426622	0.426622	14	0.004148
14.724200	3.384770	0.426786	0.426786	14	0.004244
14.735500	3.336890	0.418310	0.418310	14	0.004125
14.746900	3.449950	0.435313	0.435313	14	0.004759
14.758200	3.412130	0.426511	0.426511	14	0.004648
14.769600	3.432790	0.429452	0.429452	14	0.004449
14.780900	3.406340	0.423442	0.423442	14	0.004094
14.792300	3.368310	0.415879	0.415879	14	0.004049
14.803700	3.469670	0.430120	0.430120	14	0.004442
14.815100	3.413970	0.418796	0.418796	14	0.005192
14.826500	3.476980	0.427578	0.427578	14	0.004600
14.837900	3.431060	0.419371	0.419371	14	0.004435
14.849300	3.377570	0.411477	0.411477	14	0.004388
14.860800	3.489360	0.428462	0.428462	14	0.004644
14.872200	3.458850	0.422024	0.422024	14	0.004265
14.883600	3.533340	0.433785	0.433785	14	0.005099
14.895100	3.447740	0.419016	0.419016	14	0.004565
14.906500	3.399390	0.409918	0.409918	14	0.004769
14.918000	3.471160	0.420435	0.420435	14	0.004885
14.929500	3.421940	0.412327	0.412327	14	0.005614
14.941000	3.493490	0.421833	0.421833	14	0.004833
14.952500	3.450220	0.413938	0.413938	14	0.004138
14.964000	3.404170	0.406145	0.406145	14	0.004263
14.975500	3.452510	0.412718	0.412718	14	0.004787
14.987000	3.422400	0.406092	0.406092	14	0.005360
14.998600	3.496940	0.416121	0.416121	14	0.005330
15.010100	3.460400	0.409065	0.409065	14	0.005953
15.021700	3.421750	0.401842	0.401842	14	0.006035
15.033200	3.446850	0.403748	0.403748	14	0.005721
15.044800	3.425240	0.399291	0.399291	14	0.005127
15.056400	3.511190	0.411310	0.411310	14	0.006604
15.067900	3.489130	0.406815	0.406815	14	0.007387
15.079500	3.434190	0.398132	0.398132	14	0.005232
15.091100	3.454790	0.400518	0.400518	14	0.006810
15.102700	3.412040	0.391625	0.391625	14	0.006616
15.114400	3.501280	0.402198	0.402198	14	0.007422
15.126000	3.379610	0.268854	0.268854	14	0.005473
15.137600	3.381360	0.267515	0.267515	14	0.005095
15.149300	3.424350	0.271917	0.271917	14	0.005677
15.160900	3.370480	0.265990	0.265990	14	0.004740
15.172600	3.433300	0.271494	0.271494	14	0.005346
15.184300	3.398050	0.265925	0.265925	14	0.005765
15.196000	3.378670	0.262824	0.262824	14	0.005228
15.207700	3.431240	0.267346	0.267346	14	0.006059
15.219400	3.384730	0.262194	0.262194	14	0.005211
15.231100	3.476130	0.272180	0.272180	14	0.005757
15.242800	3.425380	0.265812	0.265812	14	0.005974
15.254500	3.452340	0.269691	0.269691	14	0.006975
15.266300	3.558130	0.280085	0.280085	14	0.005516
15.278000	3.477600	0.270160	0.270160	14	0.006426
15.289800	3.573460	0.282458	0.282458	14	0.007300
15.301500	3.483930	0.381626	0.381626	13	0.004506
15.313300	3.404000	0.370482	0.370482	13	0.003663
15.325100	3.486390	0.379483	0.379483	13	0.005226
15.336900	3.450790	0.373405	0.373405	13	0.004694
15.348700	3.553890	0.386820	0.386820	13	0.005492
15.360500	3.501610	0.378200	0.378200	13	0.005614
15.372300	3.431320	0.369570	0.369570	13	0.005296
15.384200	3.482940	0.377233	0.377233	13	0.005608
15.396000	3.469140	0.375475	0.375475	13	0.005408
15.407900	3.573230	0.388883	0.388883	13	0.005347
15.419700	3.606960	0.393381	0.393381	13	0.004886
15.431600	3.531860	0.382299	0.382299	13	0.005421
15.443400	3.531840	0.381210	0.381210	13	0.005312
15.455300	3.489060	0.373784	0.373784	13	0.004466
15.467200	3.559460	0.381534	0.381534	13	0.004847
15.479100	3.635770	0.390158	0.390158	13	0.005717
15.491000	3.560800	0.379418	0.379418	13	0.005002
15.503000	3.588380	0.382494	0.382494	13	0.004280
15.514900	3.506880	0.370324	0.370324	13	0.005029
15.526800	3.506640	0.367717	0.367717	13	0.005032
15.538800	3.621190	0.381579	0.381579	13	0.005581
15.550700	3.572100	0.373577	0.373577	13	0.005452
15.562700	3.640750	0.382357	0.382357	13	0.004823
15.574700	3.547490	0.368723	0.368723	13	0.004659
15.586700	3.505330	0.362563	0.362563	13	0.004642
15.598700	3.627370	0.377005	0.377005	13	0.004552
15.610700	3.596800	0.371475	0.371475	13	0.005483
15.622700	3.670240	0.380615	0.380615	13	0.004924
15.634700	3.648950	0.376831	0.376831	13	0.005259
15.646700	3.545680	0.362853	0.362853	13	0.005014
15.658800	3.618470	0.371470	0.371470	13	0.004494
15.670800	3.586650	0.365605	0.365605	13	0.004458
15.682900	3.657610	0.374318	0.374318	13	0.004573
15.694900	3.694440	0.378087	0.378087	13	0.004797
15.707000	3.575670	0.362118	0.362118	13	0.004056
15.719100	3.636670	0.370189	0.370189	13	0.004543
15.731200	3.620820	0.365693	0.365693	13	0.004729
15.743300	3.647700	0.369904	0.369904	13	0.004892
15.755400	3.744670	0.381510	0.381510	13	0.005107
15.767600	3.657410	0.369757	0.369757	13	0.005248
15.779700	3.681690	0.372848	0.372848	13	0.004929
15.791800	3.649600	0.366432	0.366432	13	0.004586
15.804000	3.645300	0.365926	0.365926	13	0.005008
15.816100	3.769190	0.380672	0.380672	13	0.005611
15.828300	3.736500	0.375540	0.375540	13	0.004495
15.840500	3.707460	0.370389	0.370389	13	0.004695
15.852700	3.737640	0.372511	0.372511	13	0.004496
15.864900	3.689350	0.365080	0.365080	13	0.004344
15.877100	3.803720	0.378281	0.378281	13	0.005307
15.889300	3.824830	0.379649	0.379649	13	0.004615
15.901500	3.823150	0.379790	0.379790	13	0.005921
15.913800	3.847000	0.382280	0.382280	13	0.004528
15.926000	3.799620	0.376062	0.376062	13	0.004981
15.938300	3.802000	0.374069	0.374069	13	0.004885
15.950500	3.878980	0.382244	0.382244	13	0.004753
15.962800	3.857150	0.377933	0.377933	13	0.005256
15.975100	3.890950	0.381079	0.381079	13	0.005643
15.987400	3.867930	0.378367	0.378367	13	0.005509
15.999700	3.854000	0.375917	0.375917	13	0.005889
16.012000	3.936290	0.386169	0.386169	13	0.005681
16.024300	3.948140	0.387605	0.387605	13	0.005065
16.036700	3.938290	0.383892	0.383892	13	0.005525
16.049000	3.918490	0.380407	0.380407	13	0.006428
16.061300	3.821960	0.368197	0.368197	13	0.004596
16.073700	3.853250	0.370512	0.370512	13	0.005604
16.086100	3.830880	0.366728	0.366728	13	0.006323
16.098400	3.855440	0.369471	0.369471	13	0.007210
16.110800	3.916310	0.374599	0.374599	13	0.007581
16.123200	3.861150	0.366195	0.366195	13	0.006781
16.135700	3.824510	0.358477	0.358477	13	0.006369
16.148100	3.847770	0.358163	0.358163	13	0.006172
16.160500	3.853880	0.359113	0.359113	13	0.006114
16.172900	3.922750	0.365801	0.365801	13	0.006022
16.185400	3.916650	0.362622	0.362622	13	0.006907
16.197800	3.912190	0.362639	0.362639	13	0.006883
16.210300	3.936770	0.365261	0.365261	13	0.006497
16.222800	3.893700	0.356357	0.356357	13	0.007961
16.235300	3.919390	0.357898	0.357898	13	0.007897
16.247700	3.934210	0.356956	0.356956	13	0.008810
16.260300	3.934420	0.356352	0.356352	13	0.007697
16.272800	3.954780	0.358375	0.358375	13	0.007792
16.285300	3.943910	0.356231	0.356231	13	0.008329
16.297800	3.937540	0.355391	0.355391	13	0.007865
16.310400	4.012210	0.361737	0.361737	13	0.008142
16.322900	3.977220	0.354692	0.354692	13	0.008119
16.335500	4.008010	0.358915	0.358915	13	0.007875
16.348000	4.054380	0.364002	0.364002	13	0.006925
16.360600	3.936240	0.246781	0.246781	13	0.005779
16.373200	3.931380	0.246231	0.246231	13	0.005948
16.385800	3.962360	0.247858	0.247858	13	0.006601
16.398400	3.932110	0.244319	0.244319	13	0.006289
16.411000	3.970520	0.247093	0.247093	13	0.005608
16.423700	4.005560	0.250188	0.250188	13	0.006474
16.436300	3.950100	0.244452	0.244452	13	0.005628
16.448900	3.928060	0.341973	0.341973	12	0.005617
16.461600	3.898060	0.338156	0.338156	12	0.006510
16.474300	3.841220	0.330845	0.330845	12	0.005310
16.486900	3.930570	0.339698	0.339698	12	0.005147
16.499600	3.910140	0.336742	0.336742	12	0.006584
16.512300	3.940720	0.340194	0.340194	12	0.006530
16.525000	3.954060	0.341412	0.341412	12	0.006055
16.537800	3.891750	0.334253	0.334253	12	0.005366
16.550500	3.935340	0.339323	0.339323	12	0.005180
16.563200	3.947120	0.338092	0.338092	12	0.005588
16.576000	3.974180	0.340963	0.340963	12	0.005810
16.588700	4.040870	0.346174	0.346174	12	0.005148
16.601500	4.013440	0.343874	0.343874	12	0.004997
16.614300	3.972370	0.339662	0.339662	12	0.005157
16.627100	4.025850	0.346287	0.346287	12	0.005749
16.639900	4.020270	0.345129	0.345129	12	0.005074
16.652700	4.082610	0.350213	0.350213	12	0.005609
16.665500	4.100040	0.350587	0.350587	12	0.005800
16.678300	4.093720	0.349836	0.349836	12	0.006201
16.691100	4.090250	0.347203	0.347203	12	0.006892
16.704000	4.042920	0.341585	0.341585	12	0.006707
16.716800	4.047970	0.339743	0.339743	12	0.006413
16.729700	4.129970	0.345923	0.345923	12	0.006374
16.742600	4.084950	0.339290	0.339290	12	0.005597
16.755400	4.091220	0.338812	0.338812	12	0.005425
16.768300	4.063590	0.335706	0.335706	12	0.005440
16.781200	4.003360	0.328902	0.328902	12	0.005318
16.794200	4.044070	0.332477	0.332477	12	0.005869
16.807100	4.113230	0.340284	0.340284	12	0.005618
16.820000	4.139370	0.342565	0.342565	12	0.005943
16.833000	4.179130	0.347766	0.347766	12	0.005431
16.845900	4.174640	0.347728	0.347728	12	0.005371
16.858900	4.103220	0.338941	0.338941	12	0.005730
16.871800	4.135000	0.342444	0.342444	12	0.004806
16.884800	4.123490	0.337790	0.337790	12	0.004676
16.897800	4.156560	0.339760	0.339760	12	0.005179
16.910800	4.185930	0.342728	0.342728	12	0.005561
16.923800	4.118330	0.334753	0.334753	12	0.005690
16.936900	4.119220	0.334443	0.334443	12	0.006045
16.949900	4.150770	0.338298	0.338298	12	0.005299
16.962900	4.165830	0.339121	0.339121	12	0.004894
16.976000	4.259550	0.347728	0.347728	12	0.005569
16.989100	4.271060	0.347192	0.347192	12	0.005559
17.002100	4.209770	0.339988	0.339988	12	0.005455
17.015200	4.205510	0.339475	0.339475	12	0.005038
17.028300	4.187000	0.336927	0.336927	12	0.005554
17.041400	4.205910	0.339235	0.339235	12	0.005776
17.054500	4.262000	0.343963	0.343963	12	0.006540
17.067600	4.275130	0.343937	0.343937	12	0.005191
17.080800	4.272560	0.342170	0.342170	12	0.005335
17.093900	4.265300	0.340825	0.340825	12	0.005624
17.107100	4.236350	0.337311	0.337311	12	0.005682
17.120300	4.311320	0.344659	0.344659	12	0.005794
17.133400	4.326020	0.344420	0.344420	12	0.006172
17.146600	4.288940	0.338464	0.338464	12	0.005956
17.159800	4.309540	0.337759	0.337759	12	0.005786
17.173000	4.268920	0.331560	0.331560	12	0.005987
17.186200	4.282750	0.332065	0.332065	12	0.006397
17.199400	4.318580	0.334815	0.334815	12	0.006256
17.212700	4.355280	0.337576	0.337576	12	0.006622
17.225900	4.371450	0.337139	0.337139	12	0.005809
17.239200	4.400800	0.339042	0.339042	12	0.005783
17.252500	4.353880	0.334332	0.334332	12	0.005303
17.265700	4.344080	0.333345	0.333345	12	0.005997
17.279000	4.409750	0.340131	0.340131	12	0.005939
17.292300	4.425910	0.342410	0.342410	12	0.005998
17.305600	4.453100	0.343456	0.343456	12	0.006855
17.318900	4.455450	0.342521	0.342521	12	0.007518
17.332300	4.437220	0.340303	0.340303	12	0.006664
17.345600	4.457590	0.344655	0.344655	12	0.006843
17.358900	4.505950	0.348370	0.348370	12	0.006853
17.372300	4.498460	0.344849	0.344849	12	0.006414
17.385700	4.553590	0.348526	0.348526	12	0.006608
17.399000	4.559550	0.346759	0.346759	12	0.007520
17.412400	4.534860	0.342182	0.342182	12	0.006477
17.425800	4.503380	0.337995	0.337995	12	0.007722
17.439300	4.519910	0.338953	0.338953	12	0.006546
17.452700	4.554030	0.341251	0.341251	12	0.007678
17.466100	4.560330	0.340351	0.340351	12	0.007564
17.479500	4.540100	0.336549	0.336549	12	0.007122
17.493000	4.585760	0.340757	0.340757	12	0.007744
17.506500	4.617320	0.341566	0.341566	12	0.007965
17.519900	4.525070	0.331441	0.331441	12	0.006576
17.533400	4.593780	0.337738	0.337738	12	0.007605
17.546900	4.648180	0.340556	0.340556	12	0.008637
17.560400	4.622600	0.337684	0.337684	12	0.007415
17.573900	4.623440	0.336953	0.336953	12	0.007874
17.587400	4.628450	0.336372	0.336372	12	0.007228
17.601000	4.587600	0.331899	0.331899	12	0.007955
17.614500	4.607610	0.333808	0.333808	12	0.007821
17.628100	4.633310	0.336577	0.336577	12	0.008978
17.641600	4.669940	0.341158	0.341158	12	0.008321
17.655200	4.753910	0.348220	0.348220	12	0.009247
17.668800	4.663550	0.337567	0.337567	12	0.008699
17.682400	4.697220	0.339848	0.339848	12	0.008797
17.696000	4.761300	0.345537	0.345537	12	0.008510
17.709600	4.751730	0.342957	0.342957	12	0.008290
17.723200	4.765110	0.341837	0.341837	12	0.008826
17.736900	4.824730	0.346847	0.346847	12	0.010643
17.750500	4.830890	0.348347	0.348347	12	0.009905
17.764200	4.785920	0.243957	0.243957	12	0.007768
17.777900	4.777720	0.242636	0.242636	12	0.007231
17.791500	4.799820	0.242317	0.242317	12	0.008093
17.805200	4.802100	0.241365	0.241365	12	0.009993
17.818900	4.802900	0.239415	0.239415	12	0.008318
17.832600	4.810380	0.240323	0.240323	12	0.007737
17.846400	4.784220	0.237751	0.237751	12	0.007733
17.860100	4.697530	0.328850	0.328850	11	0.006402
17.873800	4.737640	0.331986	0.331986	11	0.007736
17.887600	4.752810	0.332865	0.332865	11	0.006880
17.901400	4.780140	0.334372	0.334372	11	0.006633
17.915100	4.835790	0.337294	0.337294	11	0.007473
17.928900	4.871830	0.339429	0.339429	11	0.008067
17.942700	4.857550	0.339484	0.339484	11	0.006886
17.956500	4.870820	0.340037	0.340037	11	0.007537
17.970400	4.847040	0.337289	0.337289	11	0.007191
17.984200	4.875370	0.339902	0.339902	11	0.006458
17.998000	4.941590	0.344540	0.344540	11	0.007469
18.011900	4.968610	0.346388	0.346388	11	0.006802
18.025700	4.958450	0.344395	0.344395	11	0.008417
18.039600	4.927710	0.340988	0.340988	11	0.007059
18.053500	4.870640	0.334517	0.334517	11	0.006134
18.067400	4.905850	0.337901	0.337901	11	0.007287
18.081300	4.966930	0.342387	0.342387	11	0.007949
18.095200	5.014470	0.344650	0.344650	11	0.006791
18.109100	5.029210	0.347052	0.347052	11	0.006654
18.123100	5.029150	0.346894	0.346894	11	0.007558
18.137000	5.017760	0.346074	0.346074	11	0.006981
18.151000	5.002540	0.345199	0.345199	11	0.008372
18.164900	5.090220	0.353002	0.353002	11	0.008027
18.178900	5.040320	0.344939	0.344939	11	0.008113
18.192900	5.063350	0.346273	0.346273	11	0.007235
18.206900	5.144590	0.352098	0.352098	11	0.008624
18.220900	5.112300	0.347590	0.347590	11	0.007598
18.234900	5.038530	0.340920	0.340920	11	0.007122
18.249000	5.061100	0.341974	0.341974	11	0.007295
18.263000	5.133250	0.347183	0.347183	11	0.006061
18.277100	5.152870	0.349015	0.349015	11	0.006282
18.291100	5.171090	0.348928	0.348928	11	0.006871
18.305200	5.147460	0.345356	0.345356	11	0.006089
18.319300	5.124200	0.344182	0.344182	11	0.005774
18.333400	5.126870	0.344415	0.344415	11	0.006406
18.347500	5.114660	0.342491	0.342491	11	0.006742
18.361600	5.159670	0.346859	0.346859	11	0.007608
18.375700	5.190270	0.347291	0.347291	11	0.006986
18.389900	5.302780	0.357195	0.357195	11	0.006601
18.404000	5.263070	0.353108	0.353108	11	0.007381
18.418200	5.248140	0.351840	0.351840	11	0.007080
18.432400	5.248790	0.351151	0.351151	11	0.008265
18.446600	5.254540	0.351526	0.351526	11	0.008682
18.460700	5.281710	0.354277	0.354277	11	0.007497
18.475000	5.333520	0.358129	0.358129	11	0.008075
18.489200	5.346470	0.357509	0.357509	11	0.007650
18.503400	5.366190	0.360124	0.360124	11	0.008626
18.517600	5.353230	0.355672	0.355672	11	0.008674
18.531900	5.268770	0.346553	0.346553	11	0.006496
18.546100	5.270770	0.346446	0.346446	11	0.007425
18.560400	5.367840	0.353017	0.353017	11	0.008114
18.574700	5.366020	0.349958	0.349958	11	0.008338
18.589000	5.329210	0.345725	0.345725	11	0.008454
18.603300	5.396650	0.351098	0.351098	11	0.007939
18.617600	5.371680	0.348248	0.348248	11	0.007818
18.631900	5.359040	0.347208	0.347208	11	0.007416
18.646300	5.367620	0.346760	0.346760	11	0.006990
18.660600	5.417160	0.351466	0.351466	11	0.007605
18.675000	5.413180	0.350613	0.350613	11	0.008300
18.689400	5.484460	0.356143	0.356143	11	0.007637
18.703700	5.526160	0.358579	0.358579	11	0.007738
18.718100	5.455960	0.353780	0.353780	11	0.007912
18.732500	5.455240	0.353752	0.353752	11	0.007627
18.747000	5.461490	0.352509	0.352509	11	0.007644
18.761400	5.425960	0.348656	0.348656	11	0.007443
18.775800	5.508830	0.354783	0.354783	11	0.008735
18.790300	5.626850	0.364088	0.364088	11	0.008189
18.804700	5.612820	0.362293	0.362293	11	0.008285
18.819200	5.512400	0.352557	0.352557	11	0.006568
18.833700	5.525240	0.353135	0.353135	11	0.007298
18.848200	5.454200	0.345039	0.345039	11	0.007459
18.862700	5.428020	0.341034	0.341034	11	0.007019
18.877200	5.641720	0.357795	0.357795	11	0.008188
18.891700	5.673800	0.358439	0.358439	11	0.008338
18.906200	5.594250	0.350534	0.350534	11	0.009453
18.920800	5.602460	0.349779	0.349779	11	0.008942
18.935400	5.582750	0.346727	0.346727	11	0.009495
18.949900	5.532600	0.341952	0.341952	11	0.007912
18.964500	5.671630	0.354080	0.354080	11	0.009560
18.979100	5.701440	0.355241	0.355241	11	0.010481
18.993700	5.603700	0.345421	0.345421	11	0.008305
19.008300	5.664180	0.349019	0.349019	11	0.008673
19.022900	5.795730	0.360469	0.360469	11	0.008004
19.037600	5.630930	0.346256	0.346256	11	0.008924
19.052200	5.652790	0.347633	0.347633	11	0.009727
19.066900	5.754460	0.353846	0.353846	11	0.010227
19.081600	5.769290	0.353581	0.353581	11	0.011489
19.096300	5.803190	0.356606	0.356606	11	0.009766
19.111000	5.853810	0.359419	0.359419	11	0.010781
19.125700	5.802870	0.355299	0.355299	11	0.009944
19.140400	5.755200	0.349793	0.349793	11	0.011536
19.155100	5.915380	0.360929	0.360929	11	0.009249
19.169800	5.819150	0.349509	0.349509	11	0.012839
19.184600	5.787420	0.347607	0.347607	11	0.011226
19.199400	5.768850	0.342829	0.342829	11	0.011444
19.214100	5.851790	0.347838	0.347838	11	0.009651
19.228900	5.829040	0.347249	0.347249	11	0.010017
19.243700	5.746790	0.338870	0.338870	11	0.010526
19.258500	5.878070	0.347558	0.347558	11	0.010552
19.273300	5.873350	0.345906	0.345906	11	0.010813
19.288200	5.842580	0.343166	0.343166	11	0.012191
19.303000	5.872870	0.344645	0.344645	11	0.013797
19.317900	5.997330	0.355077	0.355077	11	0.011163
19.332700	6.007860	0.354607	0.354607	11	0.011982
19.347600	5.972860	0.351859	0.351859	11	0.012969
19.362500	5.940390	0.348297	0.348297	11	0.013081
19.377400	5.826970	0.335673	0.335673	11	0.010648
19.392300	5.988660	0.348091	0.348091	11	0.014654
19.231600	5.726850	0.221347	0.221347	20	0.018479
19.247600	5.815320	0.228572	0.228572	20	0.016186
19.263600	5.721180	0.228230	0.228230	20	0.092295
19.279700	5.749340	0.223038	0.223038	20	0.239568
19.295800	5.799810	0.224432	0.224432	20	0.009165
19.311800	5.777500	0.221542	0.221542	20	0.009563
19.327900	5.813330	0.219281	0.219281	20	0.007105
19.344100	5.813000	0.222412	0.222412	20	0.007754
19.360200	5.843600	0.222005	0.222005	20	0.008067
19.376300	5.866260	0.221612	0.221612	20	0.007097
19.392500	5.896700	0.225158	0.225158	20	0.008106
19.408600	5.955970	0.225197	0.225197	20	0.006935
19.424800	5.998450	0.226766	0.226766	20	0.007828
19.441000	5.960000	0.224800	0.224800	20	0.006663
19.457200	5.956550	0.223625	0.223625	20	0.005482
19.473500	5.940220	0.222915	0.222915	20	0.004840
19.489700	5.949240	0.222409	0.222409	20	0.007154
19.505900	5.969990	0.223076	0.223076	20	0.006015
19.522200	5.971740	0.222178	0.222178	20	0.004893
19.538500	6.036460	0.223684	0.223684	20	0.005301
19.554800	6.123430	0.227350	0.227350	20	0.005110
19.571100	6.172150	0.228899	0.228899	20	0.008552
19.587400	6.175200	0.228092	0.228092	20	0.007294
19.603700	6.146140	0.226218	0.226218	20	0.007371
19.620100	6.112760	0.223029	0.223029	20	0.007604
19.636400	6.128860	0.224272	0.224272	20	0.006516
19.652800	6.114660	0.222712	0.222712	20	0.007818
19.669200	6.122590	0.218245	0.218245	20	0.005912
19.685600	6.161160	0.220749	0.220749	20	0.008396
19.702000	6.135660	0.219441	0.219441	20	0.007980
19.718400	6.149570	0.218129	0.218129	20	0.011203
19.734800	6.114560	0.217225	0.217225	20	0.010430
19.751300	6.030250	0.212326	0.212326	20	0.010366
19.767800	6.061670	0.212601	0.212601	20	0.007850
19.784200	6.065500	0.213161	0.213161	20	0.007900
19.800700	6.112780	0.214115	0.214115	20	0.004152
19.817200	6.094170	0.213203	0.213203	20	0.008198
19.833800	6.061210	0.211459	0.211459	20	0.007228
19.850300	6.047900	0.210460	0.210460	20	0.005898
19.866800	6.046720	0.210009	0.210009	20	0.006485
19.883400	6.025750	0.207497	0.207497	20	0.007161
19.900000	6.132740	0.148153	0.148153	20	0.005430
19.916600	6.179350	0.149995	0.149995	20	0.005956
19.933200	6.144030	0.146971	0.146971	20	0.005647
19.949800	6.212720	0.148323	0.148323	20	0.005466
19.966400	6.210750	0.148758	0.148758	20	0.005943
19.983100	6.233090	0.148062	0.148062	20	0.004913
19.999700	6.233350	0.148509	0.148509	20	0.007282
20.016400	6.233510	0.148814	0.148814	20	0.006279
20.033100	6.157490	0.144148	0.144148	20	0.008071
20.049800	6.205900	0.144952	0.144952	20	0.007613
20.066500	6.244110	0.146550	0.146550	20	0.007629
20.083200	6.230200	0.145487	0.145487	20	0.006829
20.100000	6.223630	0.144740	0.144740	20	0.006459
20.116700	6.230320	0.144896	0.144896	20	0.007003
20.133500	6.239730	0.144822	0.144822	20	0.010755
20.150300	6.182630	0.141556	0.141556	20	0.010428
20.167100	6.179470	0.141291	0.141291	20	0.007496
20.183900	6.159420	0.139820	0.139820	20	0.007145
20.200700	6.305390	0.202105	0.202105	19	0.006573
20.217600	6.360940	0.205772	0.205772	19	0.005851
20.234400	6.379070	0.206135	0.206135	19	0.005856
20.251300	6.394210	0.204403	0.204403	19	0.008176
20.268200	6.410730	0.207823	0.207823	19	0.008542
20.285100	6.386610	0.204264	0.204264	19	0.006425
20.302000	6.412380	0.202403	0.202403	19	0.006049
20.318900	6.484460	0.206067	0.206067	19	0.005597
20.335900	6.477090	0.203161	0.203161	19	0.005570
20.352800	6.571630	0.206996	0.206996	19	0.008711
20.369800	6.558820	0.208597	0.208597	19	0.007194
20.386800	6.539640	0.205899	0.205899	19	0.008314
20.403800	6.480870	0.204839	0.204839	19	0.007989
20.420800	6.520800	0.204023	0.204023	19	0.008944
20.437800	6.538860	0.204253	0.204253	19	0.006239
20.454800	6.551300	0.204437	0.204437	19	0.006401
20.471900	6.572800	0.203421	0.203421	19	0.011443
20.489000	6.603950	0.204497	0.204497	19	0.006498
20.506000	6.635240	0.206427	0.206427	19	0.007592
20.523100	6.617330	0.203112	0.203112	19	0.007181
20.540200	6.642410	0.204429	0.204429	19	0.010198
20.557400	6.622020	0.201901	0.201901	19	0.006176
20.574500	6.660220	0.201455	0.201455	19	0.010951
20.591700	6.639500	0.202608	0.202608	19	0.010171
20.608800	6.722310	0.205379	0.205379	19	0.007204
20.626000	6.757500	0.205964	0.205964	19	0.007710
20.643200	6.842550	0.208141	0.208141	19	0.008380
20.660400	6.826970	0.204584	0.204584	19	0.008155
20.677600	6.859750	0.205372	0.205372	19	0.009265
20.694900	6.797090	0.203887	0.203887	19	0.008422
20.712100	6.833970	0.201511	0.201511	19	0.010084
20.729400	6.864390	0.205682	0.205682	19	0.007778
20.746700	6.772780	0.201234	0.201234	19	0.007657
20.764000	6.804240	0.200819	0.200819	19	0.007082
20.781300	6.848780	0.205124	0.205124	19	0.007935
20.798600	6.777930	0.202091	0.202091	19	0.007136
20.815900	6.727620	0.197431	0.197431	19	0.008980
20.833300	6.875260	0.204500	0.204500	19	0.008303
20.850700	6.834150	0.199941	0.199941	19	0.008216
20.868000	6.915890	0.202274	0.202274	19	0.009141
20.885400	6.856100	0.203610	0.203610	19	0.010832
20.902800	6.809670	0.198227	0.198227	19	0.009466
20.920300	6.829350	0.145006	0.145006	19	0.009609
20.937700	6.815540	0.145560	0.145560	19	0.009169
20.955200	6.805170	0.145884	0.145884	19	0.007382
20.972700	6.820340	0.143498	0.143498	19	0.007636
20.990100	6.863290	0.144792	0.144792	19	0.008934
21.007600	6.849120	0.143853	0.143853	19	0.007080
21.025100	6.862460	0.142155	0.142155	19	0.006548
21.042700	6.844190	0.144121	0.144121	19	0.008034
21.060200	6.804610	0.141667	0.141667	19	0.008137
21.077800	6.837030	0.141138	0.141138	19	0.006829
21.095300	6.834280	0.141019	0.141019	19	0.007058
21.112900	6.878340	0.141758	0.141758	19	0.006806
21.130500	6.897850	0.140786	0.140786	19	0.010705
21.148100	6.922680	0.142700	0.142700	19	0.007409
21.165800	6.934790	0.141661	0.141661	19	0.009451
21.183400	6.956830	0.141633	0.141633	19	0.010534
21.201100	6.992570	0.210837	0.210837	18	0.010088
21.218800	6.919250	0.205828	0.205828	18	0.010404
21.236500	6.990840	0.205312	0.205312	18	0.009800
21.254200	6.972570	0.208386	0.208386	18	0.008837
21.271900	6.895630	0.201623	0.201623	18	0.007413
21.289600	6.868990	0.197702	0.197702	18	0.007904
21.307400	7.037330	0.206777	0.206777	18	0.007431
21.325100	6.996090	0.202779	0.202779	18	0.008582
21.342900	7.001360	0.200837	0.200837	18	0.010102
21.360700	6.967590	0.202062	0.202062	18	0.008544
21.378500	7.012550	0.201542	0.201542	18	0.007062
21.396300	7.049910	0.201207	0.201207	18	0.008032
21.414200	7.112560	0.204841	0.204841	18	0.006869
21.432000	7.060210	0.200521	0.200521	18	0.006616
21.449900	7.102900	0.200656	0.200656	18	0.006837
21.467800	7.110820	0.201256	0.201256	18	0.007368
21.485700	7.019150	0.195244	0.195244	18	0.006711
21.503600	7.088640	0.198161	0.198161	18	0.006325
21.521500	7.123770	0.202507	0.202507	18	0.007989
21.539400	7.004270	0.193137	0.193137	18	0.008741
21.557400	7.053190	0.194461	0.194461	18	0.008001
21.575400	7.106610	0.197156	0.197156	18	0.005984
21.593400	7.069510	0.193270	0.193270	18	0.008502
21.611400	7.115520	0.194516	0.194516	18	0.006047
21.629400	7.154680	0.199618	0.199618	18	0.008074
21.647400	7.091090	0.193869	0.193869	18	0.008295
21.665400	7.161830	0.194708	0.194708	18	0.008453
21.683500	7.146600	0.196612	0.196612	18	0.008222
21.701600	7.037410	0.188647	0.188647	18	0.006758
21.719700	7.107970	0.188110	0.188110	18	0.007033
21.737800	7.155650	0.192791	0.192791	18	0.005654
21.755900	7.136390	0.191515	0.191515	18	0.007125
21.774000	7.134080	0.189370	0.189370	18	0.006431
21.792200	7.149940	0.190247	0.190247	18	0.006621
21.810400	7.148890	0.189519	0.189519	18	0.007294
21.828600	7.177150	0.187935	0.187935	18	0.008495
21.846800	7.188040	0.190514	0.190514	18	0.007655
21.865000	7.086980	0.185270	0.185270	18	0.007165
21.883200	7.106350	0.182361	0.182361	18	0.007613
21.901400	7.231250	0.189679	0.189679	18	0.007568
21.919700	7.167900	0.187533	0.187533	18	0.008810
21.938000	7.209500	0.185900	0.185900	18	0.007426
21.956300	7.194710	0.185775	0.185775	18	0.006586
21.974600	7.233850	0.187307	0.187307	18	0.006665
21.992900	7.192360	0.183418	0.183418	18	0.006608
22.011200	7.217810	0.183778	0.183778	18	0.006005
22.029600	7.232700	0.185602	0.185602	18	0.004963
22.047900	7.210260	0.181648	0.181648	18	0.005540
22.066300	7.276280	0.183576	0.183576	18	0.005021
22.084700	7.274940	0.185021	0.185021	18	0.007364
22.103100	7.241090	0.182321	0.182321	18	0.008410
22.121500	7.284870	0.181828	0.181828	18	0.007499
22.140000	7.286340	0.184639	0.184639	18	0.011333
22.158400	7.231880	0.179986	0.179986	18	0.009717
22.176900	7.288380	0.179119	0.179119	18	0.008539
22.195400	7.287520	0.180822	0.180822	18	0.007155
22.213900	7.292650	0.180712	0.180712	18	0.008317
22.232400	7.373930	0.129965	0.129965	18	0.005410
22.251000	7.382930	0.129892	0.129892	18	0.005331
22.269500	7.439130	0.131390	0.131390	18	0.006165
22.288100	7.449720	0.130816	0.130816	18	0.006052
22.306700	7.463120	0.131071	0.131071	18	0.006106
22.325300	7.472760	0.131754	0.131754	18	0.004084
22.343900	7.441330	0.129315	0.129315	18	0.006158
22.362500	7.477870	0.128472	0.128472	18	0.006588
22.381100	7.505170	0.131295	0.131295	18	0.007062
22.399800	7.546460	0.130682	0.130682	18	0.008027
22.418500	7.556410	0.129937	0.129937	18	0.006572
22.437200	7.605710	0.132815	0.132815	18	0.007370
22.455900	7.540460	0.129880	0.129880	18	0.009347
22.474600	7.536560	0.127777	0.127777	18	0.006002
22.493300	7.544910	0.128927	0.128927	18	0.006444
22.512100	7.531480	0.127942	0.127942	18	0.010801
22.530800	7.593440	0.127402	0.127402	18	0.007214
22.549600	7.601020	0.128697	0.128697	18	0.007511
22.568400	7.614150	0.129247	0.129247	18	0.009853
22.587200	7.579860	0.126132	0.126132	18	0.008646
22.606100	7.730300	0.186509	0.186509	17	0.008316
22.624900	7.724870	0.185922	0.185922	17	0.007480
22.643800	7.761340	0.184907	0.184907	17	0.006285
22.662700	7.781050	0.186097	0.186097	17	0.006725
22.681600	7.755960	0.185708	0.185708	17	0.006913
22.700500	7.785050	0.184404	0.184404	17	0.005567
22.719400	7.817830	0.185776	0.185776	17	0.004361
22.738300	7.837970	0.187110	0.187110	17	0.009978
22.757300	7.815150	0.184377	0.184377	17	0.008312
22.776300	7.890620	0.186618	0.186618	17	0.007271
22.795200	7.858920	0.185011	0.185011	17	0.012639
22.814300	7.828920	0.182769	0.182769	17	0.008873
22.833300	7.900980	0.184794	0.184794	17	0.009062
22.852300	7.923300	0.187617	0.187617	17	0.008527
22.871400	8.019390	0.187950	0.187950	17	0.008327
22.890400	7.987040	0.185259	0.185259	17	0.006389
22.909500	7.987420	0.186360	0.186360	17	0.008587
22.928600	7.919610	0.181789	0.181789	17	0.005903
22.947700	7.960240	0.181563	0.181563	17	0.006512
22.966900	7.998000	0.184245	0.184245	17	0.006712
22.986000	7.939430	0.181402	0.181402	17	0.006542
23.005200	7.931240	0.178337	0.178337	17	0.007602
23.024300	8.014770	0.181202	0.181202	17	0.006632
23.043500	7.988960	0.180631	0.180631	17	0.007676
23.062800	7.978050	0.177989	0.177989	17	0.007390
23.082000	8.079720	0.182649	0.182649	17	0.008772
23.101200	8.096970	0.184281	0.184281	17	0.008757
23.120500	7.959560	0.177546	0.177546	17	0.009611
23.139800	8.037880	0.178932	0.178932	17	0.006523
23.159000	8.081920	0.181904	0.181904	17	0.009935
23.178400	8.132080	0.181380	0.181380	17	0.007700
23.197700	8.165020	0.180839	0.180839	17	0.004694
23.217000	8.157230	0.181924	0.181924	17	0.006183
23.236400	8.119510	0.179514	0.179514	17	0.008703
23.255800	8.027380	0.174062	0.174062	17	0.005983
23.275100	8.074000	0.176218	0.176218	17	0.006809
23.294500	8.077320	0.175754	0.175754	17	0.007981
23.314000	8.070560	0.172670	0.172670	17	0.007347
23.333400	8.119200	0.173295	0.173295	17	0.008641
23.352800	8.117800	0.176993	0.176993	17	0.009523
23.372300	8.052790	0.172461	0.172461	17	0.008565
23.391800	8.063220	0.170476	0.170476	17	0.009997
23.411300	8.081310	0.173051	0.173051	17	0.006742
23.430800	8.084080	0.172752	0.172752	17	0.007870
23.450400	8.045450	0.169167	0.169167	17	0.005652
23.469900	8.105780	0.170604	0.170604	17	0.007316
23.489500	8.171920	0.172692	0.172692	17	0.007412
23.509100	8.107150	0.168597	0.168597	17	0.008087
23.528700	8.125910	0.167719	0.167719	17	0.009475
23.548300	8.174270	0.168859	0.168859	17	0.010673
23.567900	8.072750	0.167693	0.167693	17	0.008121
23.587500	8.215390	0.123996	0.123996	17	0.007606
23.607200	8.250220	0.124502	0.124502	17	0.006897
23.626900	8.275010	0.125087	0.125087	17	0.008316
23.646600	8.232810	0.122205	0.122205	17	0.009017
23.666300	8.271390	0.122285	0.122285	17	0.007812
23.686000	8.301500	0.123966	0.123966	17	0.006246
23.705800	8.235790	0.121754	0.121754	17	0.006601
23.725500	8.231400	0.119819	0.119819	17	0.006708
23.745300	8.378790	0.123768	0.123768	17	0.007342
23.765100	8.283090	0.121620	0.121620	17	0.011331
23.784900	8.227470	0.120358	0.120358	17	0.008755
23.804800	8.314870	0.121871	0.121871	17	0.006856
23.824600	8.283790	0.121839	0.121839	17	0.008781
23.844500	8.291550	0.120763	0.120763	17	0.008664
23.864300	8.440810	0.178275	0.178275	16	0.007359
23.884200	8.481760	0.178702	0.178702	16	0.008838
23.904200	8.451850	0.175785	0.175785	16	0.008457
23.924100	8.418850	0.173133	0.173133	16	0.007571
23.944000	8.398890	0.172513	0.172513	16	0.008110
23.964000	8.371490	0.173337	0.173337	16	0.006379
23.984000	8.450140	0.173445	0.173445	16	0.007434
24.004000	8.532780	0.175064	0.175064	16	0.006760
24.024000	8.597300	0.177709	0.177709	16	0.008470
24.044000	8.669180	0.178278	0.178278	16	0.009505
24.064100	8.594030	0.174682	0.174682	16	0.005632
24.084100	8.594130	0.175874	0.175874	16	0.009799
24.104200	8.558970	0.175104	0.175104	16	0.011247
24.124300	8.525990	0.172318	0.172318	16	0.008462
24.144400	8.573340	0.173770	0.173770	16	0.006278
24.164500	8.572060	0.173553	0.173553	16	0.008198
24.184700	8.515960	0.170990	0.170990	16	0.008076
24.204800	8.474750	0.168167	0.168167	16	0.007660
24.225000	8.529170	0.170619	0.170619	16	0.008214
24.245200	8.519580	0.168986	0.168986	16	0.009862
24.265400	8.585210	0.169255	0.169255	16	0.007578
24.285700	8.568670	0.168281	0.168281	16	0.005815
24.305900	8.618070	0.170623	0.170623	16	0.008445
24.326200	8.511190	0.166968	0.166968	16	0.008980
24.346400	8.552730	0.167700	0.167700	16	0.008243
24.366700	8.666030	0.171638	0.171638	16	0.006778
24.387100	8.590150	0.170228	0.170228	16	0.009573
24.407400	8.559930	0.165911	0.165911	16	0.007228
24.427700	8.559930	0.165892	0.165892	16	0.006076
24.448100	8.584950	0.167620	0.167620	16	0.007209
24.468500	8.667740	0.168716	0.168716	16	0.008241
24.488900	8.653820	0.164781	0.164781	16	0.007402
24.509300	8.661420	0.166399	0.166399	16	0.008387
24.529700	8.647710	0.165710	0.165710	16	0.008335
24.550200	8.589360	0.162979	0.162979	16	0.005943
24.570600	8.552670	0.161602	0.161602	16	0.007773
24.591100	8.640130	0.165700	0.165700	16	0.008382
24.611600	8.651570	0.165489	0.165489	16	0.007048
24.632200	8.554790	0.159495	0.159495	16	0.007479
24.652700	8.636360	0.161611	0.161611	16	0.008287
24.673200	8.643270	0.162835	0.162835	16	0.008487
24.693800	8.622090	0.159727	0.159727	16	0.009271
24.714400	8.599470	0.157780	0.157780	16	0.009657
24.735000	8.615950	0.159644	0.159644	16	0.008800
24.755600	8.626080	0.160421	0.160421	16	0.009863
24.776300	8.615510	0.157820	0.157820	16	0.008228
24.796900	8.664480	0.158927	0.158927	16	0.006570
24.817600	8.665300	0.159573	0.159573	16	0.007463
24.838300	8.657230	0.158595	0.158595	16	0.009821
24.859000	8.576630	0.153884	0.153884	16	0.008533
24.879700	8.699370	0.157780	0.157780	16	0.007899
24.900400	8.641490	0.157473	0.157473	16	0.008379
24.921200	8.762600	0.159852	0.159852	16	0.008749
24.942000	8.656490	0.154153	0.154153	16	0.010065
24.962800	8.717530	0.156961	0.156961	16	0.010194
24.983600	8.709680	0.157701	0.157701	16	0.010934
25.004400	8.639400	0.153258	0.153258	16	0.008821
25.025300	8.649610	0.152250	0.152250	16	0.007961
25.046100	8.773820	0.155727	0.155727	16	0.009661
25.067000	8.820940	0.112306	0.112306	16	0.007756
25.087900	8.780830	0.111186	0.111186	16	0.007499
25.108800	8.766800	0.111281	0.111281	16	0.009650
25.129700	8.769530	0.110744	0.110744	16	0.008032
25.150700	8.765460	0.109272	0.109272	16	0.007381
25.171700	8.746790	0.109595	0.109595	16	0.004072
25.192600	8.876510	0.111286	0.111286	16	0.010824
25.213600	8.839630	0.110783	0.110783	16	0.007426
25.234700	8.942060	0.111968	0.111968	16	0.006757
25.255700	8.949550	0.160856	0.160856	15	0.010989
25.276800	8.788880	0.154235	0.154235	15	0.012279
25.297800	8.894080	0.155969	0.155969	15	0.009853
25.318900	8.927880	0.159153	0.159153	15	0.011379
25.340000	8.889470	0.156822	0.156822	15	0.012966
25.361200	8.877530	0.154693	0.154693	15	0.009281
25.382300	8.943060	0.157518	0.157518	15	0.012302
25.403500	8.897030	0.157563	0.157563	15	0.010063
25.424700	8.915140	0.155751	0.155751	15	0.008677
25.445800	8.930130	0.154487	0.154487	15	0.009534
25.467100	9.008910	0.157675	0.157675	15	0.010121
25.488300	9.009500	0.157282	0.157282	15	0.011159
25.509500	8.954970	0.154035	0.154035	15	0.011135
25.530800	9.025740	0.156389	0.156389	15	0.010633
25.552100	9.055100	0.158404	0.158404	15	0.008189
25.573400	9.000420	0.154899	0.154899	15	0.006957
25.594700	9.010370	0.153468	0.153468	15	0.008797
25.616100	8.947080	0.153181	0.153181	15	0.009016
25.637400	8.924410	0.152125	0.152125	15	0.011049
25.658800	9.001490	0.151577	0.151577	15	0.008632
25.680200	9.072650	0.152437	0.152437	15	0.006790
25.701600	9.086770	0.152968	0.152968	15	0.007329
25.723000	9.036900	0.151332	0.151332	15	0.006339
25.744400	9.024150	0.149288	0.149288	15	0.009604
25.765900	9.060390	0.150118	0.150118	15	0.008316
25.787400	9.056270	0.150519	0.150519	15	0.007908
25.808900	9.026910	0.148618	0.148618	15	0.007074
25.830400	9.072990	0.148492	0.148492	15	0.007263
25.851900	9.076320	0.149462	0.149462	15	0.008624
25.873500	9.056500	0.149173	0.149173	15	0.010089
25.895100	9.037640	0.147402	0.147402	15	0.010011
25.916700	9.027060	0.145956	0.145956	15	0.011303
25.938300	9.126810	0.149679	0.149679	15	0.009038
25.959900	9.159750	0.149105	0.149105	15	0.009496
25.981500	9.221530	0.148257	0.148257	15	0.007500
26.003200	9.140440	0.146456	0.146456	15	0.007214
26.024900	9.183070	0.149314	0.149314	15	0.009650
26.046600	9.000030	0.143708	0.143708	15	0.008647
26.068300	9.123400	0.143772	0.143772	15	0.009705
26.090000	9.285100	0.149620	0.149620	15	0.007798
26.111800	9.241620	0.149186	0.149186	15	0.008174
26.133500	9.166740	0.146070	0.146070	15	0.008624
26.155300	9.110530	0.142266	0.142266	15	0.007434
26.177100	9.171780	0.144015	0.144015	15	0.009759
26.198900	9.187630	0.144977	0.144977	15	0.006981
26.220800	9.116480	0.142371	0.142371	15	0.008393
26.242600	9.195690	0.143201	0.143201	15	0.007650
26.264500	9.286970	0.145547	0.145547	15	0.007762
26.286400	9.194410	0.143891	0.143891	15	0.006782
26.308300	9.090060	0.139463	0.139463	15	0.007292
26.330300	9.181720	0.140365	0.140365	15	0.006076
26.352200	9.162380	0.140512	0.140512	15	0.009981
26.374200	9.134210	0.139685	0.139685	15	0.009645
26.396200	9.092160	0.136718	0.136718	15	0.009368
26.418200	9.195820	0.138752	0.138752	15	0.008398
26.440200	9.194130	0.140394	0.140394	15	0.009490
26.462200	9.068550	0.137606	0.137606	15	0.011880
26.484300	9.106700	0.135690	0.135690	15	0.010783
26.506400	9.261100	0.138677	0.138677	15	0.011072
26.528500	9.258820	0.139319	0.139319	15	0.007794
26.550600	9.264770	0.138545	0.138545	15	0.010943
26.572700	9.281940	0.137459	0.137459	15	0.008960
26.594900	9.332590	0.137886	0.137886	15	0.008869
26.617100	9.388640	0.139465	0.139465	15	0.009337
26.639200	9.330350	0.137050	0.137050	15	0.006972
26.661500	9.303790	0.135583	0.135583	15	0.010458
26.683700	9.371280	0.137043	0.137043	15	0.007803
26.705900	9.398730	0.138284	0.138284	15	0.008461
26.728200	9.414860	0.137649	0.137649	15	0.011114
26.750500	9.417570	0.136335	0.136335	15	0.012636
26.772800	9.449260	0.136651	0.136651	15	0.011802
26.795100	9.491520	0.137752	0.137752	15	0.010365
26.817400	9.425200	0.136500	0.136500	15	0.015351
26.839800	9.550950	0.100014	0.100014	15	0.009296
26.862200	9.512320	0.099614	0.099614	15	0.010039
26.884600	9.593690	0.099877	0.099877	15	0.010200
26.907000	9.591470	0.099278	0.099278	15	0.009915
26.929400	9.618400	0.099797	0.099797	15	0.006824
26.951900	9.674260	0.099627	0.099627	15	0.007326
26.974300	9.711180	0.099742	0.099742	15	0.008991
26.996800	9.820770	0.100926	0.100926	15	0.009306
27.019300	9.711900	0.099094	0.099094	15	0.008155
27.041800	9.755920	0.098874	0.098874	15	0.008993
27.064400	9.804790	0.099757	0.099757	15	0.009590
27.087000	9.796590	0.098659	0.098659	15	0.006991
27.109500	9.784470	0.098869	0.098869	15	0.010598
27.132100	9.858450	0.099142	0.099142	15	0.007938
27.154800	10.000000	0.144269	0.144269	14	0.008697
27.177400	9.993530	0.145061	0.145061	14	0.009241
27.200100	9.994940	0.144998	0.144998	14	0.011004
27.222700	9.928920	0.142773	0.142773	14	0.011328
27.245400	9.885940	0.140816	0.140816	14	0.010095
27.268100	9.898550	0.141019	0.141019	14	0.008675
27.290900	10.034900	0.144440	0.144440	14	0.010705
27.313600	10.054500	0.143828	0.143828	14	0.010003
27.336400	10.071900	0.143634	0.143634	14	0.012982
27.359200	10.121100	0.144447	0.144447	14	0.008831
27.382000	10.037400	0.143867	0.143867	14	0.011828
27.404800	10.059900	0.142835	0.142835	14	0.014707
27.427700	10.217700	0.144411	0.144411	14	0.009873
27.450500	10.260200	0.145064	0.145064	14	0.010374
27.473400	10.179700	0.143851	0.143851	14	0.009692
27.496300	10.180600	0.142943	0.142943	14	0.011923
27.519300	10.185000	0.142064	0.142064	14	0.010816
27.542200	10.204400	0.142342	0.142342	14	0.010868
27.565100	10.193600	0.142419	0.142419	14	0.014296
27.588100	10.199200	0.140853	0.140853	14	0.010474
27.611100	10.347000	0.141694	0.141694	14	0.010525
27.634100	10.251600	0.140081	0.140081	14	0.009342
27.657200	10.285900	0.142295	0.142295	14	0.010823
27.680300	10.296000	0.140099	0.140099	14	0.010010
27.703300	10.237200	0.137472	0.137472	14	0.007746
27.726400	10.151400	0.137027	0.137027	14	0.010442
27.749500	10.106200	0.136591	0.136591	14	0.013158
27.772700	10.148100	0.135857	0.135857	14	0.014742
27.795800	10.214800	0.136787	0.136787	14	0.009403
27.819000	10.302800	0.139606	0.139606	14	0.010582
27.842200	10.328900	0.140542	0.140542	14	0.010209
27.865400	10.342100	0.139350	0.139350	14	0.018227
27.888600	10.323600	0.137348	0.137348	14	0.008738
27.911900	10.289600	0.135910	0.135910	14	0.009135
27.935200	10.346500	0.135641	0.135641	14	0.012615
27.958400	10.305300	0.134167	0.134167	14	0.011993
27.981700	10.230700	0.131425	0.131425	14	0.008057
28.005100	10.375200	0.133826	0.133826	14	0.007668
28.028400	10.390600	0.134947	0.134947	14	0.007514
28.051800	10.283600	0.132627	0.132627	14	0.009526
28.075200	10.273100	0.131442	0.131442	14	0.008577
28.098600	10.297000	0.132339	0.132339	14	0.010013
28.122000	10.315800	0.132727	0.132727	14	0.008703
28.145500	10.298800	0.132029	0.132029	14	0.008659
28.168900	10.251400	0.132119	0.132119	14	0.012550
28.192400	10.349500	0.133148	0.133148	14	0.007162
28.215900	10.458900	0.134682	0.134682	14	0.010068
28.239400	10.363900	0.131699	0.131699	14	0.010147
28.263000	10.425600	0.131174	0.131174	14	0.011046
28.286500	10.436700	0.130186	0.130186	14	0.009006
28.310100	10.566500	0.132479	0.132479	14	0.010042
28.333700	10.513300	0.131366	0.131366	14	0.013479
28.357300	10.493800	0.129655	0.129655	14	0.011109
28.381000	10.360400	0.126848	0.126848	14	0.011458
28.404600	10.443300	0.130019	0.130019	14	0.013084
28.428300	10.344000	0.127269	0.127269	14	0.010944
28.452000	10.357500	0.126947	0.126947	14	0.013565
28.475700	10.349900	0.126566	0.126566	14	0.009400
28.499500	10.350700	0.126244	0.126244	14	0.013176
28.523200	10.487900	0.128959	0.128959	14	0.011615
28.547000	10.577800	0.129951	0.129951	14	0.014519
28.570800	10.540200	0.127647	0.127647	14	0.013804
28.594600	10.518000	0.126089	0.126089	14	0.015134
28.618500	10.579300	0.127711	0.127711	14	0.016591
28.642300	10.508700	0.127319	0.127319	14	0.013565
28.666200	10.359900	0.122257	0.122257	14	0.011447
28.690100	10.378800	0.122009	0.122009	14	0.010488
28.714000	10.490600	0.125082	0.125082	14	0.014003
28.738000	10.575100	0.127700	0.127700	14	0.028183
28.761900	10.448500	0.124858	0.124858	14	0.008054
28.785900	10.476400	0.123349	0.123349	14	0.007345
28.809900	10.517700	0.123934	0.123934	14	0.009986
28.833900	10.603400	0.126097	0.126097	14	0.009786
28.858000	10.533600	0.124217	0.124217	14	0.011606
28.882000	10.586800	0.086944	0.086944	14	0.010343
28.906100	10.537800	0.086175	0.086175	14	0.010827
28.930200	10.572800	0.086934	0.086934	14	0.013720
28.954300	10.700700	0.088244	0.088244	14	0.008654
28.978500	10.658100	0.087109	0.087109	14	0.011201
29.002600	10.568200	0.085576	0.085576	14	0.010869
29.026800	10.633700	0.086570	0.086570	14	0.007449
29.051000	10.620100	0.086771	0.086771	14	0.009047
29.075200	10.599800	0.085550	0.085550	14	0.008866
29.099400	10.720900	0.086363	0.086363	14	0.011316
29.123700	10.575400	0.084472	0.084472	14	0.008465
29.148000	10.596100	0.084466	0.084466	14	0.008924
29.172300	10.555700	0.083599	0.083599	14	0.013465
29.196600	10.556600	0.083411	0.083411	14	0.012272
29.220900	10.678900	0.119558	0.119558	13	0.014803
29.245300	10.661000	0.117774	0.117774	13	0.011164
29.269700	10.767100	0.118881	0.118881	13	0.010356
29.294100	10.650000	0.117481	0.117481	13	0.009809
29.318500	10.749500	0.119495	0.119495	13	0.009125
29.343000	10.742100	0.116526	0.116526	13	0.012904
29.367400	10.720200	0.116238	0.116238	13	0.011610
29.391900	10.759700	0.117198	0.117198	13	0.010820
29.416400	10.725900	0.117564	0.117564	13	0.011043
29.440900	10.707500	0.116001	0.116001	13	0.011297
29.465500	10.796200	0.116732	0.116732	13	0.008243
29.490000	10.828300	0.117519	0.117519	13	0.009029
29.514600	10.899300	0.117836	0.117836	13	0.011943
29.539200	10.867100	0.115899	0.115899	13	0.012765
29.563900	10.770300	0.114503	0.114503	13	0.008962
29.588500	10.818500	0.116431	0.116431	13	0.009973
29.613200	10.790500	0.116281	0.116281	13	0.009812
29.637800	10.839200	0.115477	0.115477	13	0.008998
29.662600	10.844700	0.115478	0.115478	13	0.012038
29.687300	10.805100	0.115923	0.115923	13	0.010270
29.712000	10.775900	0.114168	0.114168	13	0.013040
29.736800	10.693300	0.112063	0.112063	13	0.012469
29.761600	10.723600	0.112094	0.112094	13	0.012482
29.786400	10.745800	0.113314	0.113314	13	0.013169
29.811200	10.646800	0.110808	0.110808	13	0.008767
29.836100	10.721400	0.110395	0.110395	13	0.007980
29.861000	10.771900	0.110831	0.110831	13	0.009709
29.885900	10.786400	0.112258	0.112258	13	0.008492
29.910800	10.790300	0.111354	0.111354	13	0.011401
29.935700	10.750100	0.109492	0.109492	13	0.012138
29.960700	10.775500	0.109534	0.109534	13	0.009884
29.985600	10.746800	0.110104	0.110104	13	0.010155
30.010700	10.800100	0.110122	0.110122	13	0.015447
30.035700	10.761500	0.108514	0.108514	13	0.011487
30.060700	10.776000	0.108031	0.108031	13	0.009228
30.085800	10.734900	0.108199	0.108199	13	0.011713
30.110800	10.729000	0.107580	0.107580	13	0.010537
30.136000	10.769700	0.107560	0.107560	13	0.012650
30.161100	10.811100	0.107885	0.107885	13	0.007984
30.186200	10.840600	0.109263	0.109263	13	0.009197
30.211400	10.892100	0.109779	0.109779	13	0.013106
30.236600	10.914300	0.108492	0.108492	13	0.009019
30.261800	10.809200	0.106484	0.106484	13	0.012960
30.287000	10.783200	0.107059	0.107059	13	0.009732
30.312300	10.849500	0.107294	0.107294	13	0.009915
30.337500	10.858500	0.106372	0.106372	13	0.010983
30.362800	10.886000	0.106249	0.106249	13	0.010258
30.388100	10.885800	0.105707	0.105707	13	0.012252
30.413500	11.001200	0.107139	0.107139	13	0.011342
30.438800	11.019200	0.106065	0.106065	13	0.010320
30.464200	10.972200	0.104571	0.104571	13	0.009998
30.489600	10.978600	0.104801	0.104801	13	0.009688
30.515000	10.932900	0.105045	0.105045	13	0.011523
30.540500	10.868500	0.104272	0.104272	13	0.013826
30.565900	10.857600	0.102866	0.102866	13	0.015042
30.591400	11.013700	0.104192	0.104192	13	0.011765
30.616900	11.019800	0.104616	0.104616	13	0.012631
30.642400	10.947700	0.103542	0.103542	13	0.012853
30.668000	11.044000	0.104321	0.104321	13	0.008428
30.693500	11.028000	0.103770	0.103770	13	0.011910
30.719100	11.047200	0.104866	0.104866	13	0.009429
30.744700	11.152700	0.105668	0.105668	13	0.016692
30.770400	11.054600	0.103865	0.103865	13	0.013887
30.796000	11.065100	0.103434	0.103434	13	0.011496
30.821700	11.039100	0.103331	0.103331	13	0.009776
30.847400	11.066300	0.104007	0.104007	13	0.009499
30.873100	11.077000	0.103362	0.103362	13	0.016675
30.898800	11.007800	0.101120	0.101120	13	0.015045
30.924600	11.064200	0.102145	0.102145	13	0.013516
30.950400	11.231300	0.104609	0.104609	13	0.015948
30.976200	11.174500	0.103338	0.103338	13	0.015464
31.002000	11.202000	0.102305	0.102305	13	0.015182
31.027900	11.469600	0.104824	0.104824	13	0.015356
31.053700	11.555700	0.105876	0.105876	13	0.019949
31.079600	11.302800	0.103308	0.103308	13	0.021680
31.105500	11.358200	0.102050	0.102050	13	0.021458
31.131500	11.616600	0.077583	0.077583	13	0.011456
31.157400	11.270000	0.073963	0.073963	13	0.015901
31.183400	11.725000	0.078243	0.078243	13	0.013821
31.209400	11.762100	0.078225	0.078225	13	0.013741
31.235400	11.638300	0.077070	0.077070	13	0.014105
31.261400	11.445000	0.074939	0.074939	13	0.010998
31.287500	11.451300	0.075841	0.075841	13	0.013014
31.313600	11.401200	0.075382	0.075382	13	0.014728
31.339700	11.340700	0.073781	0.073781	13	0.012314
31.365800	11.433100	0.075633	0.075633	13	0.015036
31.392000	11.364300	0.072997	0.072997	13	0.011984
31.418100	11.626500	0.111536	0.111536	12	0.014747
31.444300	11.589800	0.110595	0.110595	12	0.013717
31.470600	11.596700	0.110755	0.110755	12	0.016847
31.496800	11.418800	0.108694	0.108694	12	0.018362
31.523100	11.459500	0.108250	0.108250	12	0.019085
31.549300	11.473500	0.107036	0.107036	12	0.013643
31.575600	11.487200	0.107273	0.107273	12	0.012606
31.602000	11.499400	0.106783	0.106783	12	0.015757
31.628300	11.429400	0.106098	0.106098	12	0.014673
31.654700	11.410900	0.104850	0.104850	12	0.019037
31.681100	11.485500	0.105594	0.105594	12	0.014132
31.707500	11.466700	0.104831	0.104831	12	0.018462
31.733900	11.580700	0.105617	0.105617	12	0.017400
31.760400	11.616300	0.105541	0.105541	12	0.014777
31.786800	11.765400	0.106334	0.106334	12	0.013679
31.813300	11.766600	0.106954	0.106954	12	0.015248
31.839900	11.902600	0.108527	0.108527	12	0.018861
31.866400	11.955700	0.108935	0.108935	12	0.013802
31.893000	11.657800	0.104533	0.104533	12	0.018020
31.919600	11.775300	0.105339	0.105339	12	0.011026
31.946200	11.863500	0.106420	0.106420	12	0.019674
31.972800	12.254400	0.111034	0.111034	12	0.017693
31.999500	11.797800	0.104675	0.104675	12	0.015548
32.026100	11.952800	0.105836	0.105836	12	0.018086
32.052800	12.066300	0.107107	0.107107	12	0.015963
32.079600	12.101800	0.107742	0.107742	12	0.014447
32.106300	11.969200	0.105080	0.105080	12	0.015411
32.133100	11.976300	0.104774	0.104774	12	0.019800
32.159900	12.236600	0.106999	0.106999	12	0.015163
32.186700	11.829000	0.101899	0.101899	12	0.013978
32.213500	12.190600	0.106337	0.106337	12	0.014095
32.240400	12.203400	0.105718	0.105718	12	0.012579
32.267200	12.274200	0.106075	0.106075	12	0.016708
32.294100	12.273800	0.105778	0.105778	12	0.013814
32.321100	12.352400	0.107120	0.107120	12	0.013506
32.348000	12.393100	0.107162	0.107162	12	0.013428
32.375000	12.366000	0.106404	0.106404	12	0.012255
32.402000	12.423500	0.106479	0.106479	12	0.015915
32.429000	12.554200	0.108232	0.108232	12	0.018933
32.456000	12.565400	0.108005	0.108005	12	0.017964
32.483100	12.598200	0.107838	0.107838	12	0.018974
32.510200	12.449200	0.105090	0.105090	12	0.017317
32.537300	12.567800	0.105712	0.105712	12	0.015291
32.564400	12.641800	0.106763	0.106763	12	0.020198
32.591500	12.584600	0.105907	0.105907	12	0.014642
32.618700	12.605500	0.105465	0.105465	12	0.018788
32.645900	12.580400	0.104310	0.104310	12	0.017322
32.673100	12.698600	0.105085	0.105085	12	0.014907
32.700400	12.843800	0.106268	0.106268	12	0.011382
32.727600	12.846100	0.106172	0.106172	12	0.012970
32.754900	12.936400	0.106373	0.106373	12	0.012004
32.782200	12.835300	0.105153	0.105153	12	0.018600
32.809500	12.801200	0.104860	0.104860	12	0.016287
32.836900	12.835500	0.105705	0.105705	12	0.016643
32.864300	12.848700	0.105326	0.105326	12	0.019635
32.891700	12.969800	0.105154	0.105154	12	0.019860
32.919100	12.982200	0.104973	0.104973	12	0.018507
32.946500	12.883700	0.104063	0.104063	12	0.018829
32.974000	12.914600	0.104768	0.104768	12	0.019570
33.001500	13.123500	0.107222	0.107222	12	0.015167
33.029000	13.407800	0.109058	0.109058	12	0.023602
33.056500	13.179700	0.106074	0.106074	12	0.017076
33.084100	13.201300	0.105770	0.105770	12	0.021672
33.111700	13.202900	0.105707	0.105707	12	0.020058
33.139300	13.018900	0.103809	0.103809	12	0.013619
33.166900	13.113600	0.103859	0.103859	12	0.018446
33.194500	13.120800	0.103120	0.103120	12	0.018783
33.222200	13.100300	0.103216	0.103216	12	0.019185
33.249900	13.347800	0.106017	0.106017	12	0.017908
33.277600	13.123300	0.103179	0.103179	12	0.025817
33.305400	13.303400	0.104334	0.104334	12	0.026204
33.333100	13.188400	0.102928	0.102928	12	0.023482
33.360900	13.346100	0.103728	0.103728	12	0.022152
33.388700	13.276700	0.102502	0.102502	12	0.020452
33.416600	13.339200	0.103034	0.103034	12	0.017925
33.444400	13.497600	0.103381	0.103381	12	0.027769
33.472300	13.572200	0.104204	0.104204	12	0.025662
33.500200	13.666300	0.104823	0.104823	12	0.020031
33.528200	13.799300	0.106434	0.106434	12	0.021255
33.556100	13.584100	0.103407	0.103407	12	0.028207
33.584100	13.710700	0.105045	0.105045	12	0.026681
33.612100	13.541100	0.103258	0.103258	12	0.025462
33.640100	13.586100	0.103830	0.103830	12	0.035012
33.668200	13.566400	0.104057	0.104057	12	0.032800
33.696200	13.568800	0.103431	0.103431	12	0.037619
33.752400	13.323800	0.099668	0.099668	12	0.026313
33.780600	13.720600	0.103415	0.103415	12	0.031419
33.808700	13.908700	0.105698	0.105698	12	0.033442
33.836900	13.860100	0.104065	0.104065	12	0.029750
33.865100	13.703500	0.101971	0.101971	12	0.030657
33.893400	14.224400	0.106191	0.106191	12	0.031207
33.921600	13.821300	0.074922	0.074922	12	0.020952
33.949900	13.530800	0.072719	0.072719	12	0.019746
33.978200	13.550400	0.106740	0.106740	11	0.035718
34.006500	13.609100	0.106833	0.106833	11	0.018427
34.034900	13.315200	0.104260	0.104260	11	0.024538
34.063300	13.429400	0.104856	0.104856	11	0.029945
34.091600	13.477900	0.105172	0.105172	11	0.030204
34.120100	13.501900	0.105386	0.105386	11	0.027592
34.148500	13.342400	0.102669	0.102669	11	0.025132
34.177000	13.516200	0.103490	0.103490	11	0.034561
34.205500	13.448300	0.102278	0.102278	11	0.029167
34.234000	13.412200	0.101194	0.101194	11	0.021808
34.262500	13.578200	0.102394	0.102394	11	0.025225
34.348300	13.113200	0.097337	0.097337	11	0.020077
34.376900	13.262600	0.099401	0.099401	11	0.026646
34.405600	13.422600	0.100989	0.100989	11	0.029377
34.434300	13.542200	0.101688	0.101688	11	0.027407
34.463000	14.022000	0.104877	0.104877	11	0.019614
34.491700	14.151000	0.105368	0.105368	11	0.025792
34.520500	13.734900	0.101357	0.101357	11	0.024666
34.549200	12.945500	0.094426	0.094426	11	0.023251
34.578000	13.374800	0.098482	0.098482	11	0.024375
34.606900	13.297600	0.097140	0.097140	11	0.022307
34.635700	13.419700	0.098351	0.098351	11	0.026707
34.664600	13.458800	0.097724	0.097724	11	0.026627
34.693500	13.514700	0.095789	0.095789	11	0.022813
34.722400	13.478000	0.094672	0.094672	11	0.024457
34.751400	13.146400	0.091674	0.091674	11	0.023701
34.809300	13.860900	0.099027	0.099027	11	0.046369
34.838400	13.732800	0.098853	0.098853	11	0.027377
34.867400	13.497400	0.096725	0.096725	11	0.026327
34.896500	13.416800	0.095903	0.095903	11	0.021780
34.925600	13.409100	0.096012	0.096012	11	0.031076
34.954700	13.731500	0.098379	0.098379	11	0.033542
34.983800	13.630800	0.097316	0.097316	11	0.036297
35.013000	13.607500	0.096253	0.096253	11	0.032411
35.042200	13.424700	0.094138	0.094138	11	0.031149
35.071400	13.400100	0.093106	0.093106	11	0.023467
35.100600	13.429000	0.092397	0.092397	11	0.020706
35.129900	13.233400	0.090008	0.090008	11	0.020664
35.159200	13.618200	0.092380	0.092380	11	0.027945
35.188500	13.583100	0.091704	0.091704	11	0.027936
35.217800	13.546300	0.091316	0.091316	11	0.021146
35.247200	13.614400	0.092252	0.092252	11	0.021599
35.276600	13.612500	0.091950	0.091950	11	0.024970
35.306000	13.320500	0.090223	0.090223	11	0.023403
35.335400	13.488800	0.090982	0.090982	11	0.022635
35.364900	13.522900	0.090599	0.090599	11	0.034040
35.394300	13.752600	0.092390	0.092390	11	0.026624
35.423900	13.810300	0.092232	0.092232	11	0.032860
35.453400	13.827500	0.092184	0.092184	11	0.031585
35.482900	13.822500	0.092016	0.092016	11	0.028728
35.512500	13.765600	0.092679	0.092679	11	0.025500
35.542100	13.592600	0.091086	0.091086	11	0.036341
35.571800	13.801100	0.093445	0.093445	11	0.022671
35.601400	13.944100	0.094012	0.094012	11	0.025572
35.631100	14.363500	0.097914	0.097914	11	0.025302
35.660800	14.141700	0.095610	0.095610	11	0.040538
35.690500	14.113500	0.095159	0.095159	11	0.037703
35.720300	14.032900	0.093718	0.093718	11	0.041490
35.750100	14.139700	0.094281	0.094281	11	0.045594
35.779900	14.385300	0.096701	0.096701	11	0.046445
35.809700	14.366200	0.096817	0.096817	11	0.059869
35.839600	14.700800	0.098330	0.098330	11	0.059716
35.869400	14.821400	0.099239	0.099239	11	0.042710
35.899300	15.198200	0.100800	0.100800	11	0.044567
35.929300	14.812400	0.097464	0.097464	11	0.049290
35.959200	14.619000	0.095219	0.095219	11	0.036931
35.989200	14.611400	0.094696	0.094696	11	0.031120
